Folder: Beetle2/datasets

Note: README.md
# Beetle2
An artificially-intelligent tool to estimate the whole life carbon emissions of building structures

File: Processed-Population-Data.csv
Footprint Area,Footprint Aspect Ratio,Span Length along x dir.,Span Length along y dir.,No of spans along x dir.,No of spans along y dir.,No of floors,Interstory heigh,Maximum spacing between secondary beamsa,Selfweight of composite floor deckb,Weight of floor finisches,Variable floor load,Weigth of envelope,Total mass (optimised) structural steel frame,Total mass (rationalised) structural steel frame,Total (steel) mass of composite floor deck,Total (concrete) mass of composite floor deck,Total No of (primary and secondary) beams,Total No of columnsd,Total No of elements (Beams + Columns),Total No of Column-to-column (Column-to-foundation) connections,Total No of Beam-to-column & Beam-to-Beam connections,Total No of connections,Total mass (optimised) Columns,Total mass (rationalised) Columns,Total mass Concrete floors (beams + slabs),Total mass (optimised) Concrete  frame,Total mass (rationalised) Concrete  frame,Total mass (reinforcement) Steel,Total No of beamse,Total No of columns,Total No of elements (Beams + Columns) 2,Formwork surface area (beams),Total formwork surface area (columns),Total formwork surface area (floor slabs)g,Total mass (rationalised) Columns 2,Total mass timber floors (Glulam beams + CLT slabs),Total mass (rationalised) Timber  frame,Total mass steel connections,Total mass (rationalised) Columns plus Beams,Total No of (primary and secondary) beams 2,Total No of columnsd 2,Total No of (CLT) slabsh,Total No of connections 2
4826.674,0.888,5.266,7.275,14,9,2,3.581,2.6,2.15,0,2.15,3.61,363.79,371.93,111.9,2116.4,1054,150,1204,150,2108,2258,85.81,103.55,3382.45,3468.25,3486,296.76,316,300,616,856.35,210.24,7589.59,14.2817,651.987,666.268,67.74,226.076,1054,150,965.3348,2258
4695.057,0.971,6.321,9.647,11,7,7,3.802,2.6,2.2,0,2.2,7.64,1988.25,2269.89,380.98,7372.97,2282,384,2666,384,4564,4948,712.07,1185.23,13330.4,14042.46,14515.63,1268.95,714,672,1386,2955.16,1003.44,27269.93,120.348,2363.08,2483.43,148.44,984.765,2282,384,3286.54,4948
2359.401,0.34,6.403,7.086,13,4,8,3.569,2.6,2.31,0,2.31,11.03,874.13,1118.09,218.8,4446.16,1800,280,2080,280,3600,3880,404.42,673.93,6765.93,7170.35,7439.86,655.99,584,560,1144,2268.29,673.58,14593.29,82.7437,1323.19,1405.94,116.4,545.228,1800,280,1887.52,3880
1261.261,0.339,6.775,6.895,9,3,8,3.721,2.6,2.55,0.83,3.38,4.22,586.46,680.07,116.96,2623.71,960,160,1120,160,1920,2080,237.51,395.36,3741.02,3978.53,4136.37,366.98,336,320,656,1476.96,363.21,7642.45,79.0924,773.087,852.179,62.4,392.071,960,160,1009.01,2080
3206.746,0.744,5.051,6.976,13,7,1,3.627,2.6,2.55,0.35,2.9,8.92,131.61,133.33,37.17,833.85,293,112,405,112,586,698,25.74,25.74,1106.81,1132.55,1132.55,96.07,118,112,230,301.82,61.09,2476.35,4.20442,218.906,223.111,20.94,76.883,293,112,320.6746,698
3663.698,0.567,5.358,5.698,15,8,10,3.865,2.6,2.55,1.2,3.75,9.69,1811.51,2241.89,424.7,9526.66,5030,720,5750,720,10060,10780,1332.09,2282.85,17604.25,18936.34,19887.1,1761.92,1510,1440,2950,4010.96,2071.25,27215.65,350.488,2688.56,3039.05,323.4,1368.4,5030,720,3663.7,10780
3828.717,0.819,6.215,7,11,8,5,3.81,2.6,2.55,1.03,3.58,7.88,1049.09,1129.3,221.91,4977.88,1855,324,2179,324,3710,4034,306.7,475.58,6914.44,7221.14,7390.03,641.9,575,540,1115,2036.47,575.13,15059.16,90.9494,1447.13,1538.08,121.02,665.132,1855,324,1914.36,4034
3236.328,0.911,5.419,10.859,11,5,1,3.798,2.6,2.55,0.1,2.65,10.39,240.84,286.28,37.52,841.54,236,72,308,72,472,544,24.19,24.19,1423.06,1447.25,1447.25,122.62,76,72,148,296.61,45.41,2683.21,3.63532,250.207,253.842,16.32,106.265,236,72,323.6328,544
3690.761,0.686,5.239,10.064,14,5,2,3.732,2.6,2.4,0,2.4,11.51,482.12,622.92,85.57,1806.5,598,90,688,90,1196,1286,72.12,91.26,3038.45,3110.57,3129.71,266.29,188,180,368,612.26,141.65,6048.49,11.1552,549.622,560.777,38.58,224.18,598,90,738.1522,1286
4377.333,0.63,5.955,10.502,14,5,1,3.953,2.6,2.55,1.42,3.97,3.67,350.11,358.82,50.74,1138.23,299,90,389,90,598,688,33.76,33.76,1962.68,1996.44,1996.44,169.28,94,90,184,392.98,59.21,3640.82,7.21715,371.659,378.876,20.64,179.269,299,90,437.7333,688
3751.165,0.713,5.182,5.745,14,9,2,3.501,2.6,2.55,0.57,3.12,10.47,263.38,274.2,86.97,1950.82,802,150,952,150,1604,1754,84.19,101.84,3407.43,3491.62,3509.27,298.27,316,300,616,777.02,210.95,5586.03,15.6537,510.046,525.7,52.62,183.594,802,150,750.233,1754
2128.588,0.998,6.596,7.683,7,6,4,3.688,2.6,2.55,1.61,4.16,10.54,539.49,575.88,98.7,2213.98,724,112,836,112,1448,1560,118.58,177.05,3252.03,3370.61,3429.09,297.47,244,224,468,1102.17,219.16,6779,41.3833,694.531,735.914,46.8,347.66,724,112,851.435,1560
1439.203,0.463,6.192,6.456,9,4,8,3.952,2.6,2.55,1.23,3.78,7.79,641.37,744.29,133.47,2993.87,1256,200,1456,200,2512,2712,282,466.59,4136.06,4418.06,4602.65,408.01,424,400,824,1544.28,445.9,8664.73,105.003,888.989,993.992,81.36,468.97,1256,200,1151.36,2712
1261.954,0.396,7.057,11.177,8,2,9,3.67,2.6,2.55,1.75,4.3,8.89,1101.25,1240.29,131.66,2953.3,666,135,801,135,1332,1467,360.62,622.06,5495.56,5856.18,6117.62,542.91,252,243,495,1444.19,372.7,9290.07,152.648,1048.04,1200.68,44.01,682.777,666,135,1135.76,1467
4139.223,0.566,5.345,6.05,16,8,10,3.758,2.6,2.55,0.24,2.79,3.59,1796.33,2071.75,479.82,10763.16,5360,765,6125,765,10720,11485,1066.38,1800.99,13882.83,14949.22,15683.82,1391.92,1600,1530,3130,4232.5,1927.12,31227.03,254.173,2821.36,3075.53,344.55,1188.04,5360,765,4139.223,11485
4599.684,0.377,6.137,10.41,18,4,2,3.809,2.6,2.55,1.46,4.01,11.93,740.72,801.28,106.64,2392.1,620,95,715,95,1240,1335,94.75,121.06,4114.43,4209.18,4235.49,361.4,196,190,386,833.13,161.92,7620.01,22.5045,790.441,812.945,40.05,393.454,620,95,919.937,1335
4837.606,0.67,5.311,5.693,16,10,10,3.577,2.6,2.55,0.56,3.11,8.55,2095.53,2569.9,560.78,12579.16,6660,935,7595,935,13320,14255,1542.58,2640.52,22030.84,23573.42,24671.35,2177.46,1960,1870,3830,5025.43,2689.06,36125.27,335.078,3381.92,3717,427.65,1511.05,6660,935,4837.606,14255
4236.902,0.414,5.326,6.978,19,6,4,3.647,2.6,2.55,0.8,3.35,3.09,814.09,876.9,196.46,4406.86,1924,280,2204,280,3848,4128,230.62,337.21,6046.62,6277.24,6383.83,550.02,580,560,1140,1604.7,500.46,13109.34,58.7167,1244.12,1302.83,123.84,530.024,1924,280,1694.76,4128
945.919,0.23,6.408,7.381,10,2,6,3.653,2.6,2.55,0.74,3.29,8.2,335.75,378.74,65.79,1475.8,552,99,651,99,1104,1203,110.63,175.54,2108.95,2219.58,2284.49,201.05,204,198,402,868.12,177.78,4229.79,36.2327,443.403,479.636,36.09,220.832,552,99,567.551,1203
2646.1,0.707,5.098,10.813,12,4,10,3.696,2.6,2.55,0,2.55,4.55,1799.51,2002.83,306.74,6880.62,1600,325,1925,325,3200,3525,820.69,1423.34,11553.99,12374.68,12977.33,1148.66,680,650,1330,2441.47,1035.2,21715.37,159.577,1909.16,2068.74,105.75,862.12,1600,325,2646.1,3525
801.495,0.253,5.118,7.119,11,2,10,3.57,2.6,2.55,1.73,4.28,7.84,507.46,618.37,92.91,2084.12,790,180,970,180,1580,1760,231.49,390.21,2929.56,3161.05,3319.78,295.85,370,360,730,1142.23,360.81,5813.44,114.455,621.095,735.55,52.8,370.068,790,180,801.495,1760
4258.489,0.548,5.875,6.904,15,7,9,3.666,2.6,2.55,1.58,4.13,2.55,2288.98,2608.89,444.28,9965.96,3978,640,4618,640,7956,8596,914.05,1545.9,13777.79,14691.84,15323.69,1352.54,1206,1152,2358,3873.54,1547.14,29893.63,359.203,2963.48,3322.68,257.88,1575,3978,640,3832.64,8596
637.067,0.456,6.232,8.519,6,2,1,3.56,2.6,2.05,0,2.05,8.39,32.12,37.41,7.38,133.17,56,21,77,21,112,133,5.12,5.12,249.12,254.23,254.23,21.75,22,21,43,97.28,10.26,489.11,0.773766,46.2771,47.0509,3.99,18.0006,56,21,63.7067,133
4119.151,0.705,6.371,6.735,12,8,5,3.905,2.6,2.55,0.87,3.42,6.7,1042.92,1132.22,238.75,5355.49,2020,351,2371,351,4040,4391,335.16,519.27,7364.26,7699.42,7883.53,685.83,620,585,1205,2257.7,620.35,16104.76,94.5752,1533,1627.57,131.73,688.405,2020,351,2059.58,4391
2959.49,0.615,6.305,10.667,11,4,5,3.566,2.6,2.29,0,2.29,9.82,978.87,1189.52,171.53,3455.44,955,180,1135,180,1910,2090,251.97,399.14,6419.37,6671.34,6818.5,589.87,315,300,615,1397.39,378.2,12295.55,41.3863,1106.08,1147.47,62.7,472.704,955,180,1479.745,2090
4216.734,0.4,6.843,6.847,15,6,9,3.543,2.6,2.55,1.21,3.76,10.43,2215.7,2543.45,439.92,9868.24,3429,560,3989,560,6858,7418,867.48,1473.74,13785.66,14653.14,15259.4,1348.94,1053,1008,2061,4340.32,1416.17,29709.23,303.757,2967.25,3271.01,222.54,1540.46,3429,560,3795.06,7418
4990.853,0.992,7.095,7.816,10,9,6,3.596,2.6,2.55,0.5,3.05,2.03,1590.87,1731.61,347.12,7786.59,2274,330,2604,330,4548,4878,503.9,815.65,11050.47,11554.37,11866.12,1034.5,708,660,1368,3196.03,860,24295.31,126.206,2231.06,2357.27,146.34,991.772,2274,330,2994.51,4878
1595.672,0.365,6.609,8.048,10,3,5,3.921,2.6,2.55,0.82,3.37,9.53,502.69,553.6,92.49,2074.6,665,132,797,132,1330,1462,143.52,224.05,3106.81,3250.33,3330.86,290.61,230,220,450,991.57,221.15,6258.18,43.2121,629.136,672.348,43.86,308.535,665,132,797.836,1462
1658.172,0.323,5.115,7.719,14,3,7,3.573,2.6,2.55,1.09,3.64,9.36,646.41,730.24,134.55,3018.21,1001,240,1241,240,2002,2242,245.5,398.5,4331.99,4577.49,4730.48,414.03,434,420,854,1282.85,428.11,8872.68,84.5622,865.492,950.054,67.26,420.766,1001,240,1160.72,2242
2915.713,0.474,6.534,9.297,12,4,5,3.546,2.6,2.55,1.09,3.64,7.99,1065.48,1137.23,168.99,3790.84,1040,195,1235,195,2080,2275,239.98,378.71,6096.78,6336.76,6475.49,562.18,340,325,665,1582.99,385.43,11893.2,68.7045,1185.09,1253.8,68.25,589.013,1040,195,1457.86,2275
3860.632,0.216,6.371,9.619,21,3,9,3.533,2.6,2.02,0,2.02,11.28,2040.9,2683.61,402.77,7157.04,2484,440,2924,440,4968,5408,879.54,1507.94,14098.17,14977.71,15606.11,1375.68,810,792,1602,3326.2,1154.15,28215.11,157.675,2512.13,2669.81,162.24,1085.4,2484,440,3474.57,5408
3906.027,0.698,5.345,10.44,14,5,7,3.666,2.6,2.55,1.75,4.3,5.28,2492.62,2690.91,316.95,7109.75,2093,360,2453,360,4186,4546,630.98,1049.74,12131.36,12762.34,13181.1,1150.25,658,630,1288,2386.29,908.16,22555.03,224.805,2394.1,2618.91,136.38,1372.11,2093,360,2734.22,4546
4673.67,0.999,5.263,7.591,13,9,2,3.667,2.6,2.55,1.73,4.28,2.35,547.57,565.88,108.35,2430.58,980,140,1120,140,1960,2100,87.11,106.6,3470.81,3557.92,3577.41,305.25,296,280,576,908.32,202.97,7405.08,24.9852,740.418,765.403,63,339.165,980,140,934.734,2100
4581.292,0.609,6.674,10.56,13,5,5,3.669,2.6,2.55,0.35,2.9,6.18,1699.52,1793.38,265.53,5956.33,1390,252,1642,252,2780,3032,391.25,621.01,9956.1,10347.35,10577.12,916.63,440,420,860,2175.74,568.95,19194.8,81.9432,1787.55,1869.49,90.96,824.955,1390,252,2290.646,3032
4352.411,0.798,8.204,8.421,9,7,1,3.948,2.6,2.42,0,2.42,11.9,253.02,290.83,50.45,1074.05,331,80,411,80,662,742,28.9,28.9,1678.33,1707.23,1707.23,145.59,86,80,166,494.22,52.52,3584.88,4.70728,339.889,344.597,22.26,146.127,331,80,435.2411,742
3145.374,0.545,6.332,10.349,12,4,7,3.522,2.6,2.55,0.09,2.64,6.19,1554.98,1656.49,255.23,5725.21,1456,260,1716,260,2912,3172,467.45,779.07,9336.13,9803.58,10115.2,882.79,476,455,931,2063.59,656.3,18228.07,95.5352,1666.01,1761.55,95.16,757.545,1456,260,2201.76,3172
2645.411,0.412,7.281,8.257,11,4,4,3.717,2.6,2.55,1.6,4.15,7.64,721.69,768.78,122.66,2751.53,764,120,884,120,1528,1648,150.11,226.71,4240.58,4390.69,4467.28,388.08,252,240,492,1332.26,249.77,8504.22,50.2687,887.692,937.96,49.44,455.437,764,120,1058.16,1648
3215.637,0.711,7.474,9.561,9,5,3,3.539,2.6,2.55,1.63,4.18,10.36,716.02,742.55,111.83,2508.47,582,120,702,120,1164,1284,111.19,158.77,4140.26,4251.45,4299.03,370.11,192,180,372,1116.74,189.23,8005.88,33.8742,837.184,871.058,38.52,431.159,582,120,964.6911,1284
3470.419,0.881,5.231,6.911,12,8,7,3.734,2.6,2.55,1.27,3.82,11.9,1385.9,1636.79,281.6,6316.86,2828,468,3296,468,5656,6124,495.38,804.21,8656.42,9151.8,9460.63,827.37,868,819,1687,2373.93,934.06,18828.93,162.62,1848.02,2010.64,183.72,902.879,2828,468,2429.29,6124
4196.469,0.339,5.3,5.387,21,7,6,3.86,2.6,2.42,0,2.42,6.63,898.4,1079.81,291.87,6213.43,3696,528,4224,528,7392,7920,576.49,909.96,10841.42,11417.91,11751.37,1022.74,1092,1056,2148,2702.3,1118.17,18343.14,99.1893,1654.39,1753.58,237.6,605.429,3696,528,2517.88,7920